# Wavelength table for fos,blue,g270h
2226.66 
2228.76 
2230.86 
2232.96 
2235.06 
2237.16 
2239.26 
2241.36 
2243.46 
2245.56 
2247.66 
2249.76 
2251.86 
2253.96 
2256.07 
2258.17 
2260.27 
2262.37 
2264.47 
2266.57 
2268.67 
2270.77 
2272.88 
2274.98 
2277.08 
2279.18 
2281.28 
2283.38 
2285.49 
2287.59 
2289.69 
2291.79 
2293.89 
2296.00 
2298.10 
2300.20 
2302.30 
2304.40 
2306.51 
2308.61 
2310.71 
2312.81 
2314.92 
2317.02 
2319.12 
2321.23 
2323.33 
2325.43 
2327.53 
2329.64 
2331.74 
2333.84 
2335.95 
2338.05 
2340.15 
2342.25 
2344.36 
2346.46 
2348.56 
2350.67 
2352.77 
2354.87 
2356.98 
2359.08 
2361.19 
2363.29 
2365.39 
2367.50 
2369.60 
2371.70 
2373.81 
2375.91 
2378.01 
2380.12 
2382.22 
2384.33 
2386.43 
2388.53 
2390.64 
2392.74 
2394.85 
2396.95 
2399.05 
2401.16 
2403.26 
2405.37 
2407.47 
2409.57 
2411.68 
2413.78 
2415.89 
2417.99 
2420.10 
2422.20 
2424.31 
2426.41 
2428.51 
2430.62 
2432.72 
2434.83 
2436.93 
2439.04 
2441.14 
2443.25 
2445.35 
2447.45 
2449.56 
2451.66 
2453.77 
2455.87 
2457.98 
2460.08 
2462.19 
2464.29 
2466.40 
2468.50 
2470.61 
2472.71 
2474.81 
2476.92 
2479.02 
2481.13 
2483.23 
2485.34 
2487.44 
2489.55 
2491.65 
2493.76 
2495.86 
2497.97 
2500.07 
2502.18 
2504.28 
2506.39 
2508.49 
2510.59 
2512.70 
2514.80 
2516.91 
2519.01 
2521.12 
2523.22 
2525.33 
2527.43 
2529.54 
2531.64 
2533.75 
2535.85 
2537.96 
2540.06 
2542.16 
2544.27 
2546.37 
2548.48 
2550.58 
2552.69 
2554.79 
2556.90 
2559.00 
2561.11 
2563.21 
2565.31 
2567.42 
2569.52 
2571.63 
2573.73 
2575.84 
2577.94 
2580.05 
2582.15 
2584.25 
2586.36 
2588.46 
2590.57 
2592.67 
2594.77 
2596.88 
2598.98 
2601.09 
2603.19 
2605.29 
2607.40 
2609.50 
2611.61 
2613.71 
2615.81 
2617.92 
2620.02 
2622.13 
2624.23 
2626.33 
2628.44 
2630.54 
2632.64 
2634.75 
2636.85 
2638.95 
2641.06 
2643.16 
2645.27 
2647.37 
2649.47 
2651.57 
2653.68 
2655.78 
2657.88 
2659.99 
2662.09 
2664.19 
2666.30 
2668.40 
2670.50 
2672.61 
2674.71 
2676.81 
2678.91 
2681.02 
2683.12 
2685.22 
2687.32 
2689.43 
2691.53 
2693.63 
2695.73 
2697.84 
2699.94 
2702.04 
2704.14 
2706.24 
2708.35 
2710.45 
2712.55 
2714.65 
2716.75 
2718.85 
2720.96 
2723.06 
2725.16 
2727.26 
2729.36 
2731.46 
2733.56 
2735.67 
2737.77 
2739.87 
2741.97 
2744.07 
2746.17 
2748.27 
2750.37 
2752.47 
2754.57 
2756.67 
2758.77 
2760.87 
2762.97 
2765.08 
2767.18 
2769.28 
2771.38 
2773.48 
2775.58 
2777.67 
2779.77 
2781.87 
2783.97 
2786.07 
2788.17 
2790.27 
2792.37 
2794.47 
2796.57 
2798.67 
2800.77 
2802.87 
2804.97 
2807.06 
2809.16 
2811.26 
2813.36 
2815.46 
2817.56 
2819.65 
2821.75 
2823.85 
2825.95 
2828.05 
2830.14 
2832.24 
2834.34 
2836.44 
2838.53 
2840.63 
2842.73 
2844.83 
2846.92 
2849.02 
2851.12 
2853.21 
2855.31 
2857.41 
2859.50 
2861.60 
2863.70 
2865.79 
2867.89 
2869.98 
2872.08 
2874.18 
2876.27 
2878.37 
2880.46 
2882.56 
2884.65 
2886.75 
2888.84 
2890.94 
2893.03 
2895.13 
2897.22 
2899.32 
2901.41 
2903.51 
2905.60 
2907.69 
2909.79 
2911.88 
2913.98 
2916.07 
2918.16 
2920.26 
2922.35 
2924.44 
2926.54 
2928.63 
2930.72 
2932.82 
2934.91 
2937.00 
2939.09 
2941.19 
2943.28 
2945.37 
2947.46 
2949.55 
2951.65 
2953.74 
2955.83 
2957.92 
2960.01 
2962.10 
2964.19 
2966.28 
2968.37 
2970.46 
2972.56 
2974.65 
2976.74 
2978.83 
2980.92 
2983.01 
2985.10 
2987.19 
2989.27 
2991.36 
2993.45 
2995.54 
2997.63 
2999.72 
3001.81 
3003.90 
3005.99 
3008.07 
3010.16 
3012.25 
3014.34 
3016.43 
3018.51 
3020.60 
3022.69 
3024.77 
3026.86 
3028.95 
3031.03 
3033.12 
3035.21 
3037.29 
3039.38 
3041.47 
3043.55 
3045.64 
3047.72 
3049.81 
3051.89 
3053.98 
3056.06 
3058.15 
3060.23 
3062.32 
3064.40 
3066.49 
3068.57 
3070.65 
3072.74 
3074.82 
3076.91 
3078.99 
3081.07 
3083.15 
3085.24 
3087.32 
3089.40 
3091.49 
3093.57 
3095.65 
3097.73 
3099.81 
3101.89 
3103.98 
3106.06 
3108.14 
3110.22 
3112.30 
3114.38 
3116.46 
3118.54 
3120.62 
3122.70 
3124.78 
3126.86 
3128.94 
3131.02 
3133.10 
3135.18 
3137.26 
3139.33 
3141.41 
3143.49 
3145.57 
3147.65 
3149.72 
3151.80 
3153.88 
3155.96 
3158.03 
3160.11 
3162.19 
3164.26 
3166.34 
3168.42 
3170.49 
3172.57 
3174.64 
3176.72 
3178.79 
3180.87 
3182.94 
3185.02 
3187.09 
3189.17 
3191.24 
3193.31 
3195.39 
3197.46 
3199.54 
3201.61 
3203.68 
3205.75 
3207.83 
3209.90 
3211.97 
3214.04 
3216.11 
3218.19 
3220.26 
3222.33 
3224.40 
3226.47 
3228.54 
3230.61 
3232.68 
3234.75 
3236.82 
3238.89 
3240.96 
3243.03 
3245.10 
3247.17 
3249.24 
3251.31 
3253.37 
3255.44 
3257.51 
3259.58 
3261.65 
3263.71 
3265.78 
3267.85 
3269.91 
3271.98 
3274.05 
3276.11 
3278.18 
3280.24 
3282.31 
3284.37 
3286.44 
3288.50 
3290.57 
3292.63 
3294.70 
3296.76 
