# Wavelength table for fos,red,g270h
    2234.61
    2236.67
    2238.73
    2240.79
    2242.85
    2244.91
    2246.98
    2249.04
     2251.1
    2253.16
    2255.22
    2257.28
    2259.35
    2261.41
    2263.47
    2265.53
    2267.59
    2269.66
    2271.72
    2273.78
    2275.84
    2277.91
    2279.97
    2282.03
    2284.09
    2286.16
    2288.22
    2290.28
    2292.34
    2294.41
    2296.47
    2298.53
    2300.59
    2302.66
    2304.72
    2306.78
    2308.85
    2310.91
    2312.97
    2315.03
     2317.1
    2319.16
    2321.22
    2323.29
    2325.35
    2327.41
    2329.48
    2331.54
     2333.6
    2335.67
    2337.73
     2339.8
    2341.86
    2343.92
    2345.99
    2348.05
    2350.11
    2352.18
    2354.24
    2356.31
    2358.37
    2360.43
     2362.5
    2364.56
    2366.63
    2368.69
    2370.76
    2372.82
    2374.88
    2376.95
    2379.01
    2381.08
    2383.14
    2385.21
    2387.27
    2389.34
     2391.4
    2393.47
    2395.53
    2397.59
    2399.66
    2401.72
    2403.79
    2405.85
    2407.92
    2409.99
    2412.05
    2414.12
    2416.18
    2418.25
    2420.31
    2422.38
    2424.44
    2426.51
    2428.57
    2430.64
     2432.7
    2434.77
    2436.84
     2438.9
    2440.97
    2443.03
     2445.1
    2447.16
    2449.23
     2451.3
    2453.36
    2455.43
    2457.49
    2459.56
    2461.63
    2463.69
    2465.76
    2467.82
    2469.89
    2471.96
    2474.02
    2476.09
    2478.16
    2480.22
    2482.29
    2484.36
    2486.42
    2488.49
    2490.56
    2492.62
    2494.69
    2496.76
    2498.82
    2500.89
    2502.96
    2505.02
    2507.09
    2509.16
    2511.23
    2513.29
    2515.36
    2517.43
    2519.49
    2521.56
    2523.63
     2525.7
    2527.76
    2529.83
     2531.9
    2533.97
    2536.03
     2538.1
    2540.17
    2542.24
     2544.3
    2546.37
    2548.44
    2550.51
    2552.58
    2554.64
    2556.71
    2558.78
    2560.85
    2562.92
    2564.98
    2567.05
    2569.12
    2571.19
    2573.26
    2575.32
    2577.39
    2579.46
    2581.53
     2583.6
    2585.67
    2587.73
     2589.8
    2591.87
    2593.94
    2596.01
    2598.08
    2600.15
    2602.22
    2604.28
    2606.35
    2608.42
    2610.49
    2612.56
    2614.63
     2616.7
    2618.77
    2620.84
     2622.9
    2624.97
    2627.04
    2629.11
    2631.18
    2633.25
    2635.32
    2637.39
    2639.46
    2641.53
     2643.6
    2645.67
    2647.74
    2649.81
    2651.88
    2653.95
    2656.01
    2658.08
    2660.15
    2662.22
    2664.29
    2666.36
    2668.43
     2670.5
    2672.57
    2674.64
    2676.71
    2678.78
    2680.85
    2682.92
    2684.99
    2687.06
    2689.13
     2691.2
    2693.27
    2695.34
    2697.42
    2699.49
    2701.56
    2703.63
     2705.7
    2707.77
    2709.84
    2711.91
    2713.98
    2716.05
    2718.12
    2720.19
    2722.26
    2724.33
     2726.4
    2728.47
    2730.54
    2732.62
    2734.69
    2736.76
    2738.83
     2740.9
    2742.97
    2745.04
    2747.11
    2749.18
    2751.26
    2753.33
     2755.4
    2757.47
    2759.54
    2761.61
    2763.68
    2765.75
    2767.83
     2769.9
    2771.97
    2774.04
    2776.11
    2778.18
    2780.25
    2782.33
     2784.4
    2786.47
    2788.54
    2790.61
    2792.69
    2794.76
    2796.83
     2798.9
    2800.97
    2803.04
    2805.12
    2807.19
    2809.26
    2811.33
     2813.4
    2815.48
    2817.55
    2819.62
    2821.69
    2823.77
    2825.84
    2827.91
    2829.98
    2832.05
    2834.13
     2836.2
    2838.27
    2840.34
    2842.42
    2844.49
    2846.56
    2848.63
    2850.71
    2852.78
    2854.85
    2856.92
      2859.
    2861.07
    2863.14
    2865.22
    2867.29
    2869.36
    2871.43
    2873.51
    2875.58
    2877.65
    2879.73
     2881.8
    2883.87
    2885.95
    2888.02
    2890.09
    2892.16
    2894.24
    2896.31
    2898.38
    2900.46
    2902.53
     2904.6
    2906.68
    2908.75
    2910.82
     2912.9
    2914.97
    2917.04
    2919.12
    2921.19
    2923.27
    2925.34
    2927.41
    2929.49
    2931.56
    2933.63
    2935.71
    2937.78
    2939.85
    2941.93
      2944.
    2946.08
    2948.15
    2950.22
     2952.3
    2954.37
    2956.45
    2958.52
    2960.59
    2962.67
    2964.74
    2966.82
    2968.89
    2970.96
    2973.04
    2975.11
    2977.19
    2979.26
    2981.34
    2983.41
    2985.48
    2987.56
    2989.63
    2991.71
    2993.78
    2995.86
    2997.93
      3000.
    3002.08
    3004.15
    3006.23
     3008.3
    3010.38
    3012.45
    3014.53
     3016.6
    3018.68
    3020.75
    3022.83
     3024.9
    3026.97
    3029.05
    3031.12
     3033.2
    3035.27
    3037.35
    3039.42
     3041.5
    3043.57
    3045.65
    3047.72
     3049.8
    3051.87
    3053.95
    3056.02
     3058.1
    3060.17
    3062.25
    3064.32
     3066.4
    3068.47
    3070.55
    3072.63
     3074.7
    3076.78
    3078.85
    3080.93
      3083.
    3085.08
    3087.15
    3089.23
     3091.3
    3093.38
    3095.45
    3097.53
    3099.61
    3101.68
    3103.76
    3105.83
    3107.91
    3109.98
    3112.06
    3114.13
    3116.21
    3118.29
    3120.36
    3122.44
    3124.51
    3126.59
    3128.67
    3130.74
    3132.82
    3134.89
    3136.97
    3139.04
    3141.12
     3143.2
    3145.27
    3147.35
    3149.42
     3151.5
    3153.58
    3155.65
    3157.73
     3159.8
    3161.88
    3163.96
    3166.03
    3168.11
    3170.19
    3172.26
    3174.34
    3176.41
    3178.49
    3180.57
    3182.64
    3184.72
     3186.8
    3188.87
    3190.95
    3193.02
     3195.1
    3197.18
    3199.25
    3201.33
    3203.41
    3205.48
    3207.56
    3209.64
    3211.71
    3213.79
    3215.87
    3217.94
    3220.02
     3222.1
    3224.17
    3226.25
    3228.33
     3230.4
    3232.48
    3234.56
    3236.63
    3238.71
    3240.79
    3242.86
    3244.94
    3247.02
    3249.09
    3251.17
    3253.25
    3255.32
     3257.4
    3259.48
    3261.56
    3263.63
    3265.71
    3267.79
    3269.86
    3271.94
    3274.02
    3276.09
    3278.17
    3280.25
    3282.33
     3284.4
    3286.48
    3288.56
    3290.63
    3292.71
