# Wavelength table for hrs,echa,20
2740.000 
2740.031 
2740.063 
2740.094 
2740.126 
2740.157 
2740.188 
2740.220 
2740.251 
2740.283 
2740.314 
2740.345 
2740.377 
2740.408 
2740.440 
2740.471 
2740.502 
2740.534 
2740.565 
2740.596 
2740.628 
2740.659 
2740.691 
2740.722 
2740.753 
2740.785 
2740.816 
2740.847 
2740.879 
2740.910 
2740.942 
2740.973 
2741.004 
2741.036 
2741.067 
2741.098 
2741.130 
2741.161 
2741.192 
2741.224 
2741.255 
2741.287 
2741.318 
2741.349 
2741.381 
2741.412 
2741.443 
2741.475 
2741.506 
2741.537 
2741.569 
2741.600 
2741.631 
2741.663 
2741.694 
2741.725 
2741.757 
2741.788 
2741.820 
2741.851 
2741.882 
2741.914 
2741.945 
2741.976 
2742.008 
2742.039 
2742.070 
2742.102 
2742.133 
2742.164 
2742.196 
2742.227 
2742.258 
2742.290 
2742.321 
2742.352 
2742.384 
2742.415 
2742.446 
2742.477 
2742.509 
2742.540 
2742.571 
2742.603 
2742.634 
2742.665 
2742.697 
2742.728 
2742.759 
2742.791 
2742.822 
2742.853 
2742.885 
2742.916 
2742.947 
2742.979 
2743.010 
2743.041 
2743.072 
2743.104 
2743.135 
2743.166 
2743.198 
2743.229 
2743.260 
2743.292 
2743.323 
2743.354 
2743.385 
2743.417 
2743.448 
2743.479 
2743.511 
2743.542 
2743.573 
2743.604 
2743.636 
2743.667 
2743.698 
2743.730 
2743.761 
2743.792 
2743.823 
2743.855 
2743.886 
2743.917 
2743.949 
2743.980 
2744.011 
2744.042 
2744.074 
2744.105 
2744.136 
2744.167 
2744.199 
2744.230 
2744.261 
2744.292 
2744.324 
2744.355 
2744.386 
2744.418 
2744.449 
2744.480 
2744.511 
2744.543 
2744.574 
2744.605 
2744.636 
2744.668 
2744.699 
2744.730 
2744.761 
2744.793 
2744.824 
2744.855 
2744.886 
2744.918 
2744.949 
2744.980 
2745.011 
2745.043 
2745.074 
2745.105 
2745.136 
2745.167 
2745.199 
2745.230 
2745.261 
2745.292 
2745.324 
2745.355 
2745.386 
2745.417 
2745.449 
2745.480 
2745.511 
2745.542 
2745.573 
2745.605 
2745.636 
2745.667 
2745.698 
2745.730 
2745.761 
2745.792 
2745.823 
2745.854 
2745.886 
2745.917 
2745.948 
2745.979 
2746.010 
2746.042 
2746.073 
2746.104 
2746.135 
2746.167 
2746.198 
2746.229 
2746.260 
2746.291 
2746.323 
2746.354 
2746.385 
2746.416 
2746.447 
2746.478 
2746.510 
2746.541 
2746.572 
2746.603 
2746.634 
2746.666 
2746.697 
2746.728 
2746.759 
2746.790 
2746.822 
2746.853 
2746.884 
2746.915 
2746.946 
2746.977 
2747.009 
2747.040 
2747.071 
2747.102 
2747.133 
2747.165 
2747.196 
2747.227 
2747.258 
2747.289 
2747.320 
2747.352 
2747.383 
2747.414 
2747.445 
2747.476 
2747.507 
2747.539 
2747.570 
2747.601 
2747.632 
2747.663 
2747.694 
2747.725 
2747.757 
2747.788 
2747.819 
2747.850 
2747.881 
2747.912 
2747.944 
2747.975 
2748.006 
2748.037 
2748.068 
2748.099 
2748.130 
2748.162 
2748.193 
2748.224 
2748.255 
2748.286 
2748.317 
2748.348 
2748.379 
2748.411 
2748.442 
2748.473 
2748.504 
2748.535 
2748.566 
2748.597 
2748.629 
2748.660 
2748.691 
2748.722 
2748.753 
2748.784 
2748.815 
2748.846 
2748.878 
2748.909 
2748.940 
2748.971 
2749.002 
2749.033 
2749.064 
2749.095 
2749.126 
2749.158 
2749.189 
2749.220 
2749.251 
2749.282 
2749.313 
2749.344 
2749.375 
2749.406 
2749.437 
2749.469 
2749.500 
2749.531 
2749.562 
2749.593 
2749.624 
2749.655 
2749.686 
2749.717 
2749.748 
2749.779 
2749.811 
2749.842 
2749.873 
2749.904 
2749.935 
2749.966 
2749.997 
2750.028 
2750.059 
2750.090 
2750.121 
2750.152 
2750.184 
2750.215 
2750.246 
2750.277 
2750.308 
2750.339 
2750.370 
2750.401 
2750.432 
2750.463 
2750.494 
2750.525 
2750.556 
2750.587 
2750.619 
2750.650 
2750.681 
2750.712 
2750.743 
2750.774 
2750.805 
2750.836 
2750.867 
2750.898 
2750.929 
2750.960 
2750.991 
2751.022 
2751.053 
2751.084 
2751.115 
2751.146 
2751.177 
2751.209 
2751.240 
2751.271 
2751.302 
2751.333 
2751.364 
2751.395 
2751.426 
2751.457 
2751.488 
2751.519 
2751.550 
2751.581 
2751.612 
2751.643 
2751.674 
2751.705 
2751.736 
2751.767 
2751.798 
2751.829 
2751.860 
2751.891 
2751.922 
2751.953 
2751.984 
2752.015 
2752.046 
2752.077 
2752.108 
2752.139 
2752.170 
2752.201 
2752.232 
2752.263 
2752.294 
2752.325 
2752.356 
2752.387 
2752.418 
2752.449 
2752.480 
2752.511 
2752.542 
2752.573 
2752.604 
2752.635 
2752.666 
2752.697 
2752.728 
2752.759 
2752.790 
2752.821 
2752.852 
2752.883 
2752.914 
2752.945 
2752.976 
2753.007 
2753.038 
2753.069 
2753.100 
2753.131 
2753.162 
2753.193 
2753.224 
2753.255 
2753.286 
2753.317 
2753.348 
2753.379 
2753.410 
2753.441 
2753.472 
2753.503 
2753.534 
2753.565 
2753.596 
2753.627 
2753.658 
2753.689 
2753.720 
2753.751 
2753.782 
2753.813 
2753.844 
2753.875 
2753.906 
2753.936 
2753.967 
2753.998 
2754.029 
2754.060 
2754.091 
2754.122 
2754.153 
2754.184 
2754.215 
2754.246 
2754.277 
2754.308 
2754.339 
2754.370 
2754.401 
2754.432 
2754.463 
2754.494 
2754.524 
2754.555 
2754.586 
2754.617 
2754.648 
2754.679 
2754.710 
2754.741 
2754.772 
2754.803 
2754.834 
2754.865 
2754.896 
2754.927 
2754.957 
2754.988 
2755.019 
2755.050 
2755.081 
2755.112 
2755.143 
2755.174 
2755.205 
2755.236 
2755.267 
2755.298 
2755.328 
2755.359 
2755.390 
2755.421 
2755.452 
2755.483 
2755.514 
2755.545 
2755.576 
2755.607 
2755.638 
2755.668 
2755.699 
2755.730 
2755.761 
2755.792 
2755.823 
2755.854 
2755.885 
2755.916 
2755.946 
2755.977 
2756.008 
2756.039 
2756.070 
2756.101 
2756.132 
2756.163 
2756.194 
2756.224 
2756.255 
2756.286 
2756.317 
2756.348 
2756.379 
2756.410 
2756.441 
2756.471 
2756.502 
2756.533 
2756.564 
2756.595 
2756.626 
2756.657 
2756.688 
2756.718 
2756.749 
2756.780 
2756.811 
2756.842 
2756.873 
2756.904 
2756.934 
2756.965 
2756.996 
2757.027 
2757.058 
2757.089 
2757.120 
2757.150 
2757.181 
2757.212 
2757.243 
2757.274 
2757.305 
2757.336 
2757.366 
2757.397 
2757.428 
2757.459 
2757.490 
2757.521 
2757.551 
2757.582 
2757.613 
2757.644 
2757.675 
2757.706 
2757.736 
2757.767 
2757.798 
2757.829 
2757.860 
2757.891 
2757.921 
2757.952 
2757.983 
2758.014 
2758.045 
2758.076 
2758.106 
2758.137 
2758.168 
2758.199 
2758.230 
2758.260 
2758.291 
2758.322 
2758.353 
2758.384 
2758.415 
2758.445 
2758.476 
2758.507 
2758.538 
2758.569 
2758.599 
2758.630 
2758.661 
2758.692 
2758.723 
2758.753 
2758.784 
2758.815 
2758.846 
2758.877 
2758.907 
2758.938 
2758.969 
2759.000 
2759.031 
2759.061 
2759.092 
2759.123 
2759.154 
2759.185 
2759.215 
2759.246 
2759.277 
2759.308 
2759.338 
2759.369 
2759.400 
2759.431 
2759.462 
2759.492 
2759.523 
2759.554 
2759.585 
2759.615 
2759.646 
2759.677 
2759.708 
2759.739 
2759.769 
2759.800 
2759.831 
2759.862 
2759.892 
2759.923 
2759.954 
2759.985 
2760.015 
2760.046 
2760.077 
2760.108 
2760.138 
2760.169 
2760.200 
2760.231 
2760.261 
2760.292 
2760.323 
2760.354 
2760.384 
2760.415 
2760.446 
2760.477 
2760.507 
2760.538 
2760.569 
2760.600 
2760.630 
2760.661 
2760.692 
2760.723 
2760.753 
2760.784 
2760.815 
2760.846 
2760.876 
2760.907 
2760.938 
2760.968 
2760.999 
2761.030 
2761.061 
2761.091 
2761.122 
2761.153 
2761.184 
2761.214 
2761.245 
2761.276 
2761.306 
2761.337 
2761.368 
2761.399 
2761.429 
2761.460 
2761.491 
2761.521 
2761.552 
2761.583 
2761.614 
2761.644 
2761.675 
2761.706 
2761.736 
2761.767 
2761.798 
2761.829 
2761.859 
2761.890 
2761.921 
2761.951 
2761.982 
2762.013 
2762.043 
2762.074 
2762.105 
2762.135 
2762.166 
2762.197 
2762.228 
2762.258 
2762.289 
2762.320 
2762.350 
2762.381 
2762.412 
2762.442 
2762.473 
2762.504 
2762.534 
2762.565 
2762.596 
2762.626 
2762.657 
2762.688 
2762.718 
2762.749 
2762.780 
2762.810 
2762.841 
2762.872 
2762.902 
2762.933 
2762.964 
2762.994 
2763.025 
2763.056 
2763.086 
2763.117 
2763.148 
2763.178 
2763.209 
2763.240 
2763.270 
2763.301 
2763.332 
2763.362 
2763.393 
2763.424 
2763.454 
2763.485 
2763.516 
2763.546 
2763.577 
2763.607 
2763.638 
2763.669 
2763.699 
2763.730 
2763.761 
2763.791 
2763.822 
2763.853 
2763.883 
2763.914 
2763.945 
2763.975 
2764.006 
2764.036 
2764.067 
2764.098 
2764.128 
2764.159 
2764.190 
2764.220 
2764.251 
2764.281 
2764.312 
2764.343 
2764.373 
2764.404 
2764.435 
2764.465 
2764.496 
2764.526 
2764.557 
2764.588 
2764.618 
2764.649 
2764.679 
2764.710 
2764.741 
2764.771 
2764.802 
2764.832 
2764.863 
2764.894 
2764.924 
2764.955 
2764.985 
2765.016 
2765.047 
2765.077 
2765.108 
2765.138 
2765.169 
2765.200 
2765.230 
2765.261 
2765.291 
2765.322 
2765.353 
2765.383 
2765.414 
2765.444 
2765.475 
2765.505 
2765.536 
2765.567 
2765.597 
2765.628 
2765.658 
2765.689 
2765.720 
2765.750 
2765.781 
2765.811 
2765.842 
2765.872 
2765.903 
2765.934 
2765.964 
2765.995 
2766.025 
2766.056 
2766.086 
2766.117 
2766.147 
2766.178 
2766.209 
2766.239 
2766.270 
2766.300 
2766.331 
2766.361 
2766.392 
2766.422 
2766.453 
2766.484 
2766.514 
2766.545 
2766.575 
2766.606 
2766.636 
2766.667 
2766.697 
2766.728 
2766.758 
2766.789 
2766.820 
2766.850 
2766.881 
2766.911 
2766.942 
2766.972 
2767.003 
2767.033 
2767.064 
2767.094 
2767.125 
2767.155 
2767.186 
2767.216 
2767.247 
2767.278 
2767.308 
2767.339 
2767.369 
2767.400 
2767.430 
2767.461 
2767.491 
2767.522 
2767.552 
2767.583 
2767.613 
2767.644 
2767.674 
2767.705 
2767.735 
2767.766 
2767.796 
2767.827 
2767.857 
2767.888 
2767.918 
2767.949 
2767.979 
2768.010 
2768.040 
2768.071 
2768.101 
2768.132 
2768.162 
2768.193 
2768.223 
2768.254 
2768.284 
2768.315 
2768.345 
2768.376 
2768.406 
2768.437 
2768.467 
2768.498 
2768.528 
2768.559 
2768.589 
2768.620 
2768.650 
2768.681 
2768.711 
2768.742 
2768.772 
2768.802 
2768.833 
2768.863 
2768.894 
2768.924 
2768.955 
2768.985 
2769.016 
2769.046 
2769.077 
2769.107 
2769.138 
2769.168 
2769.199 
2769.229 
2769.259 
2769.290 
2769.320 
2769.351 
2769.381 
2769.412 
2769.442 
2769.473 
2769.503 
2769.534 
2769.564 
2769.594 
2769.625 
2769.655 
2769.686 
2769.716 
2769.747 
2769.777 
2769.808 
2769.838 
2769.868 
2769.899 
2769.929 
2769.960 
2769.990 
2770.021 
2770.051 
2770.082 
2770.112 
2770.142 
2770.173 
2770.203 
2770.234 
2770.264 
2770.295 
2770.325 
2770.355 
2770.386 
2770.416 
2770.447 
2770.477 
2770.507 
2770.538 
2770.568 
2770.599 
2770.629 
2770.660 
2770.690 
2770.720 
2770.751 
2770.781 
2770.812 
2770.842 
2770.872 
2770.903 
2770.933 
2770.964 
2770.994 
2771.024 
2771.055 
2771.085 
2771.116 
2771.146 
2771.176 
2771.207 
2771.237 
2771.268 
2771.298 
2771.328 
2771.359 
2771.389 
2771.420 
2771.450 
2771.480 
2771.511 
2771.541 
2771.572 
2771.602 
2771.632 
2771.663 
2771.693 
2771.723 
2771.754 
2771.784 
2771.815 
2771.845 
2771.875 
2771.906 
2771.936 
2771.966 
2771.997 
2772.027 
2772.058 
2772.088 
2772.118 
2772.149 
2772.179 
2772.209 
2772.240 
2772.270 
2772.300 
2772.331 
2772.361 
2772.392 
2772.422 
2772.452 
2772.483 
2772.513 
2772.543 
2772.574 
2772.604 
2772.634 
2772.665 
2772.695 
2772.725 
2772.756 
2772.786 
2772.816 
2772.847 
2772.877 
2772.907 
2772.938 
2772.968 
2772.998 
2773.029 
2773.059 
2773.089 
2773.120 
2773.150 
2773.180 
2773.211 
2773.241 
2773.271 
2773.302 
2773.332 
2773.362 
2773.393 
2773.423 
2773.453 
2773.484 
2773.514 
2773.544 
2773.575 
2773.605 
2773.635 
2773.666 
2773.696 
2773.726 
2773.757 
2773.787 
2773.817 
2773.848 
2773.878 
2773.908 
2773.938 
2773.969 
2773.999 
2774.029 
2774.060 
2774.090 
2774.120 
2774.151 
2774.181 
2774.211 
2774.241 
2774.272 
2774.302 
2774.332 
2774.363 
2774.393 
2774.423 
2774.454 
2774.484 
2774.514 
2774.544 
2774.575 
2774.605 
2774.635 
2774.666 
2774.696 
2774.726 
2774.756 
2774.787 
2774.817 
2774.847 
2774.877 
2774.908 
2774.938 
2774.968 
2774.999 
2775.029 
2775.059 
2775.089 
2775.120 
2775.150 
2775.180 
2775.210 
2775.241 
2775.271 
2775.301 
2775.331 
2775.362 
2775.392 
2775.422 
2775.453 
2775.483 
2775.513 
2775.543 
2775.574 
2775.604 
2775.634 
2775.664 
2775.695 
2775.725 
2775.755 
2775.785 
2775.816 
2775.846 
2775.876 
2775.906 
2775.937 
2775.967 
2775.997 
2776.027 
2776.057 
2776.088 
2776.118 
2776.148 
2776.178 
2776.209 
2776.239 
2776.269 
2776.299 
2776.330 
2776.360 
2776.390 
2776.420 
2776.450 
2776.481 
2776.511 
2776.541 
2776.571 
2776.602 
2776.632 
2776.662 
2776.692 
2776.722 
2776.753 
2776.783 
2776.813 
2776.843 
2776.873 
2776.904 
2776.934 
2776.964 
2776.994 
2777.025 
2777.055 
2777.085 
2777.115 
2777.145 
2777.176 
2777.206 
2777.236 
2777.266 
2777.296 
2777.327 
2777.357 
2777.387 
2777.417 
2777.447 
2777.477 
2777.508 
2777.538 
2777.568 
2777.598 
2777.628 
2777.659 
2777.689 
2777.719 
2777.749 
2777.779 
2777.810 
2777.840 
2777.870 
2777.900 
2777.930 
2777.960 
2777.991 
2778.021 
2778.051 
2778.081 
2778.111 
2778.141 
2778.172 
2778.202 
2778.232 
2778.262 
2778.292 
2778.322 
2778.353 
2778.383 
2778.413 
2778.443 
2778.473 
2778.503 
2778.534 
2778.564 
2778.594 
2778.624 
2778.654 
2778.684 
2778.714 
2778.745 
2778.775 
2778.805 
2778.835 
2778.865 
2778.895 
2778.925 
2778.956 
2778.986 
2779.016 
2779.046 
2779.076 
2779.106 
2779.136 
2779.167 
2779.197 
2779.227 
2779.257 
2779.287 
2779.317 
2779.347 
2779.377 
2779.408 
2779.438 
2779.468 
2779.498 
2779.528 
2779.558 
2779.588 
2779.618 
2779.649 
2779.679 
2779.709 
2779.739 
2779.769 
2779.799 
2779.829 
2779.859 
2779.890 
2779.920 
2779.950 
2779.980 
2780.010 
2780.040 
2780.070 
2780.100 
2780.130 
2780.160 
2780.191 
2780.221 
2780.251 
2780.281 
2780.311 
2780.341 
2780.371 
2780.401 
2780.431 
2780.461 
2780.492 
2780.522 
2780.552 
2780.582 
2780.612 
2780.642 
2780.672 
2780.702 
2780.732 
2780.762 
2780.792 
2780.822 
2780.853 
2780.883 
2780.913 
2780.943 
2780.973 
2781.003 
2781.033 
2781.063 
2781.093 
2781.123 
2781.153 
2781.183 
2781.213 
2781.243 
2781.274 
2781.304 
2781.334 
2781.364 
2781.394 
2781.424 
2781.454 
2781.484 
2781.514 
2781.544 
2781.574 
2781.604 
2781.634 
2781.664 
2781.694 
2781.724 
2781.754 
2781.784 
2781.815 
2781.845 
2781.875 
2781.905 
2781.935 
2781.965 
2781.995 
2782.025 
2782.055 
2782.085 
2782.115 
2782.145 
2782.175 
2782.205 
2782.235 
2782.265 
2782.295 
2782.325 
2782.355 
2782.385 
2782.415 
2782.445 
2782.475 
2782.505 
2782.535 
2782.565 
2782.595 
2782.625 
2782.655 
2782.685 
2782.715 
2782.746 
2782.776 
2782.806 
2782.836 
2782.866 
2782.896 
2782.926 
2782.956 
2782.986 
2783.016 
2783.046 
2783.076 
2783.106 
2783.136 
2783.166 
2783.196 
2783.226 
2783.256 
2783.286 
2783.316 
2783.346 
2783.376 
2783.406 
2783.436 
2783.466 
2783.496 
2783.526 
2783.556 
2783.586 
2783.616 
2783.646 
2783.676 
2783.706 
2783.735 
2783.765 
2783.795 
2783.825 
2783.855 
2783.885 
2783.915 
2783.945 
2783.975 
2784.005 
2784.035 
2784.065 
2784.095 
2784.125 
2784.155 
2784.185 
2784.215 
2784.245 
2784.275 
2784.305 
2784.335 
2784.365 
2784.395 
2784.425 
2784.455 
2784.485 
2784.515 
2784.545 
2784.575 
2784.605 
2784.635 
2784.664 
2784.694 
2784.724 
2784.754 
2784.784 
2784.814 
2784.844 
2784.874 
2784.904 
2784.934 
2784.964 
2784.994 
2785.024 
2785.054 
2785.084 
2785.114 
2785.144 
2785.174 
2785.203 
2785.233 
2785.263 
2785.293 
2785.323 
2785.353 
2785.383 
2785.413 
2785.443 
2785.473 
2785.503 
2785.533 
2785.563 
2785.593 
2785.622 
2785.652 
2785.682 
2785.712 
2785.742 
2785.772 
2785.802 
2785.832 
2785.862 
2785.892 
2785.922 
2785.952 
2785.981 
2786.011 
2786.041 
2786.071 
2786.101 
2786.131 
2786.161 
2786.191 
2786.221 
2786.251 
2786.280 
2786.310 
2786.340 
2786.370 
2786.400 
2786.430 
2786.460 
2786.490 
2786.520 
2786.550 
2786.579 
2786.609 
2786.639 
2786.669 
2786.699 
2786.729 
2786.759 
2786.789 
2786.818 
2786.848 
2786.878 
2786.908 
2786.938 
2786.968 
2786.998 
2787.028 
2787.057 
2787.087 
2787.117 
2787.147 
2787.177 
2787.207 
2787.237 
2787.267 
2787.296 
2787.326 
2787.356 
2787.386 
2787.416 
2787.446 
2787.476 
2787.505 
2787.535 
2787.565 
2787.595 
2787.625 
2787.655 
2787.685 
2787.714 
2787.744 
2787.774 
2787.804 
2787.834 
2787.864 
2787.894 
2787.923 
2787.953 
2787.983 
2788.013 
2788.043 
2788.073 
2788.102 
2788.132 
2788.162 
2788.192 
2788.222 
2788.252 
2788.281 
2788.311 
2788.341 
2788.371 
2788.401 
2788.431 
2788.460 
2788.490 
2788.520 
2788.550 
2788.580 
2788.610 
2788.639 
2788.669 
2788.699 
2788.729 
2788.759 
2788.788 
2788.818 
2788.848 
2788.878 
2788.908 
2788.938 
2788.967 
2788.997 
2789.027 
2789.057 
2789.087 
2789.116 
2789.146 
2789.176 
2789.206 
2789.236 
2789.265 
2789.295 
2789.325 
2789.355 
2789.385 
2789.414 
2789.444 
2789.474 
2789.504 
2789.534 
2789.563 
2789.593 
2789.623 
2789.653 
2789.682 
2789.712 
2789.742 
2789.772 
2789.802 
2789.831 
2789.861 
2789.891 
2789.921 
2789.950 
2789.980 
2790.010 
2790.040 
2790.070 
2790.099 
2790.129 
2790.159 
2790.189 
2790.218 
2790.248 
2790.278 
2790.308 
2790.337 
2790.367 
2790.397 
2790.427 
2790.457 
2790.486 
2790.516 
2790.546 
2790.576 
2790.605 
2790.635 
2790.665 
2790.695 
2790.724 
2790.754 
2790.784 
2790.814 
2790.843 
2790.873 
2790.903 
2790.933 
2790.962 
2790.992 
2791.022 
2791.052 
2791.081 
2791.111 
2791.141 
2791.170 
2791.200 
2791.230 
2791.260 
2791.289 
2791.319 
2791.349 
2791.379 
2791.408 
2791.438 
2791.468 
2791.497 
2791.527 
2791.557 
2791.587 
2791.616 
2791.646 
2791.676 
2791.706 
2791.735 
2791.765 
2791.795 
2791.824 
2791.854 
2791.884 
2791.914 
2791.943 
2791.973 
2792.003 
2792.032 
2792.062 
2792.092 
2792.121 
2792.151 
2792.181 
2792.211 
2792.240 
2792.270 
2792.300 
2792.329 
2792.359 
2792.389 
2792.418 
2792.448 
2792.478 
2792.508 
2792.537 
2792.567 
2792.597 
2792.626 
2792.656 
2792.686 
2792.715 
2792.745 
2792.775 
2792.804 
2792.834 
2792.864 
2792.893 
2792.923 
2792.953 
2792.982 
2793.012 
2793.042 
2793.072 
2793.101 
2793.131 
2793.161 
2793.190 
2793.220 
2793.250 
2793.279 
2793.309 
2793.339 
2793.368 
2793.398 
2793.427 
2793.457 
2793.487 
2793.516 
2793.546 
2793.576 
2793.605 
2793.635 
2793.665 
2793.694 
2793.724 
2793.754 
2793.783 
2793.813 
2793.843 
2793.872 
2793.902 
2793.932 
2793.961 
2793.991 
2794.021 
2794.050 
2794.080 
2794.109 
2794.139 
2794.169 
2794.198 
2794.228 
2794.258 
2794.287 
2794.317 
2794.346 
2794.376 
2794.406 
2794.435 
2794.465 
2794.495 
2794.524 
2794.554 
2794.583 
2794.613 
2794.643 
2794.672 
2794.702 
2794.732 
2794.761 
2794.791 
2794.820 
2794.850 
2794.880 
2794.909 
2794.939 
2794.968 
2794.998 
2795.028 
2795.057 
2795.087 
2795.117 
2795.146 
2795.176 
2795.205 
2795.235 
2795.265 
2795.294 
2795.324 
2795.353 
2795.383 
2795.412 
2795.442 
2795.472 
2795.501 
2795.531 
2795.560 
2795.590 
2795.620 
2795.649 
2795.679 
2795.708 
2795.738 
2795.768 
2795.797 
2795.827 
2795.856 
2795.886 
2795.915 
2795.945 
2795.975 
2796.004 
2796.034 
2796.063 
2796.093 
2796.122 
2796.152 
2796.182 
2796.211 
2796.241 
2796.270 
2796.300 
2796.329 
2796.359 
2796.389 
2796.418 
2796.448 
2796.477 
2796.507 
2796.536 
2796.566 
2796.595 
2796.625 
2796.655 
2796.684 
2796.714 
2796.743 
2796.773 
2796.802 
2796.832 
2796.861 
2796.891 
2796.920 
2796.950 
2796.980 
2797.009 
2797.039 
2797.068 
2797.098 
2797.127 
2797.157 
2797.186 
2797.216 
2797.245 
2797.275 
2797.304 
2797.334 
2797.363 
2797.393 
2797.423 
2797.452 
2797.482 
2797.511 
2797.541 
2797.570 
2797.600 
2797.629 
2797.659 
2797.688 
2797.718 
2797.747 
2797.777 
2797.806 
2797.836 
2797.865 
2797.895 
2797.924 
2797.954 
2797.983 
2798.013 
2798.042 
2798.072 
2798.101 
2798.131 
2798.160 
2798.190 
2798.219 
2798.249 
2798.278 
2798.308 
2798.337 
2798.367 
2798.396 
2798.426 
2798.455 
2798.485 
2798.514 
2798.544 
2798.573 
2798.603 
2798.632 
2798.662 
2798.691 
2798.721 
2798.750 
2798.780 
2798.809 
2798.839 
2798.868 
2798.898 
2798.927 
2798.957 
2798.986 
2799.015 
2799.045 
2799.074 
2799.104 
2799.133 
2799.163 
2799.192 
2799.222 
2799.251 
2799.281 
2799.310 
2799.340 
2799.369 
2799.399 
2799.428 
2799.457 
2799.487 
2799.516 
2799.546 
2799.575 
2799.605 
2799.634 
2799.664 
2799.693 
2799.723 
2799.752 
2799.781 
2799.811 
2799.840 
2799.870 
2799.899 
2799.929 
2799.958 
2799.988 
2800.017 
2800.046 
2800.076 
2800.105 
2800.135 
2800.164 
2800.194 
2800.223 
2800.252 
2800.282 
2800.311 
2800.341 
2800.370 
2800.400 
2800.429 
2800.458 
2800.488 
2800.517 
2800.547 
2800.576 
2800.606 
2800.635 
2800.664 
2800.694 
2800.723 
2800.753 
2800.782 
2800.811 
2800.841 
2800.870 
2800.900 
2800.929 
2800.958 
2800.988 
2801.017 
2801.047 
2801.076 
2801.105 
2801.135 
2801.164 
2801.194 
2801.223 
2801.252 
2801.282 
2801.311 
2801.341 
2801.370 
2801.399 
2801.429 
2801.458 
2801.488 
2801.517 
2801.546 
2801.576 
2801.605 
2801.635 
2801.664 
2801.693 
2801.723 
2801.752 
2801.781 
2801.811 
2801.840 
2801.870 
2801.899 
2801.928 
2801.958 
2801.987 
2802.016 
2802.046 
2802.075 
2802.105 
2802.134 
2802.163 
2802.193 
2802.222 
2802.251 
2802.281 
2802.310 
2802.339 
2802.369 
2802.398 
2802.428 
2802.457 
2802.486 
2802.516 
2802.545 
2802.574 
2802.604 
2802.633 
2802.662 
2802.692 
2802.721 
2802.750 
2802.780 
2802.809 
2802.838 
2802.868 
2802.897 
2802.926 
2802.956 
2802.985 
2803.014 
2803.044 
2803.073 
2803.102 
2803.132 
2803.161 
2803.190 
2803.220 
2803.249 
2803.278 
2803.308 
2803.337 
2803.366 
2803.396 
2803.425 
2803.454 
2803.484 
2803.513 
2803.542 
2803.572 
2803.601 
2803.630 
2803.660 
2803.689 
2803.718 
2803.748 
2803.777 
2803.806 
2803.836 
2803.865 
2803.894 
2803.923 
2803.953 
2803.982 
2804.011 
2804.041 
2804.070 
2804.099 
2804.129 
2804.158 
2804.187 
2804.216 
2804.246 
2804.275 
2804.304 
2804.334 
2804.363 
2804.392 
2804.422 
2804.451 
2804.480 
2804.509 
2804.539 
2804.568 
2804.597 
2804.627 
2804.656 
2804.685 
2804.714 
2804.744 
2804.773 
2804.802 
2804.831 
2804.861 
2804.890 
2804.919 
2804.949 
2804.978 
2805.007 
2805.036 
2805.066 
2805.095 
2805.124 
2805.153 
2805.183 
2805.212 
2805.241 
2805.270 
2805.300 
2805.329 
2805.358 
2805.388 
2805.417 
2805.446 
2805.475 
2805.505 
2805.534 
2805.563 
2805.592 
2805.622 
2805.651 
2805.680 
2805.709 
2805.739 
2805.768 
2805.797 
2805.826 
2805.855 
2805.885 
2805.914 
2805.943 
2805.972 
2806.002 
2806.031 
2806.060 
2806.089 
2806.119 
2806.148 
2806.177 
2806.206 
2806.236 
2806.265 
2806.294 
2806.323 
2806.352 
2806.382 
2806.411 
2806.440 
2806.469 
2806.499 
2806.528 
2806.557 
2806.586 
2806.615 
2806.645 
2806.674 
2806.703 
2806.732 
2806.761 
2806.791 
2806.820 
2806.849 
2806.878 
2806.907 
2806.937 
2806.966 
2806.995 
2807.024 
2807.054 
2807.083 
2807.112 
2807.141 
2807.170 
2807.199 
2807.229 
2807.258 
2807.287 
2807.316 
2807.345 
2807.375 
2807.404 
2807.433 
2807.462 
2807.491 
2807.521 
2807.550 
2807.579 
2807.608 
2807.637 
2807.666 
2807.696 
2807.725 
2807.754 
2807.783 
2807.812 
2807.842 
2807.871 
2807.900 
2807.929 
2807.958 
2807.987 
2808.017 
2808.046 
2808.075 
2808.104 
2808.133 
2808.162 
2808.192 
2808.221 
2808.250 
2808.279 
2808.308 
2808.337 
2808.366 
2808.396 
2808.425 
2808.454 
2808.483 
2808.512 
2808.541 
2808.571 
2808.600 
2808.629 
2808.658 
2808.687 
2808.716 
2808.745 
2808.775 
2808.804 
2808.833 
2808.862 
2808.891 
2808.920 
2808.949 
2808.979 
2809.008 
2809.037 
2809.066 
2809.095 
2809.124 
2809.153 
2809.182 
2809.212 
2809.241 
2809.270 
2809.299 
2809.328 
2809.357 
2809.386 
2809.415 
2809.445 
2809.474 
2809.503 
2809.532 
2809.561 
2809.590 
2809.619 
2809.648 
2809.677 
2809.707 
2809.736 
2809.765 
2809.794 
2809.823 
2809.852 
2809.881 
2809.910 
2809.939 
2809.969 
2809.998 
2810.027 
2810.056 
2810.085 
2810.114 
2810.143 
2810.172 
2810.201 
2810.230 
2810.259 
2810.289 
2810.318 
2810.347 
2810.376 
2810.405 
2810.434 
2810.463 
2810.492 
2810.521 
2810.550 
2810.579 
2810.608 
2810.638 
2810.667 
2810.696 
2810.725 
2810.754 
2810.783 
2810.812 
2810.841 
2810.870 
2810.899 
2810.928 
2810.957 
2810.986 
2811.015 
2811.045 
2811.074 
2811.103 
2811.132 
2811.161 
2811.190 
2811.219 
2811.248 
2811.277 
2811.306 
2811.335 
2811.364 
2811.393 
2811.422 
2811.451 
2811.480 
2811.509 
2811.538 
2811.568 
2811.597 
2811.626 
2811.655 
2811.684 
2811.713 
2811.742 
2811.771 
2811.800 
2811.829 
2811.858 
2811.887 
2811.916 
2811.945 
2811.974 
2812.003 
2812.032 
2812.061 
2812.090 
2812.119 
2812.148 
2812.177 
2812.206 
2812.235 
2812.264 
2812.293 
2812.322 
2812.351 
2812.380 
2812.409 
2812.438 
2812.467 
2812.496 
2812.525 
2812.554 
2812.583 
2812.613 
2812.642 
2812.671 
2812.700 
2812.729 
2812.758 
2812.787 
2812.816 
2812.845 
2812.874 
2812.903 
2812.932 
2812.961 
2812.990 
2813.019 
2813.048 
2813.077 
2813.106 
2813.135 
2813.164 
2813.192 
2813.221 
2813.250 
2813.279 
2813.308 
2813.337 
2813.366 
2813.395 
2813.424 
2813.453 
2813.482 
2813.511 
2813.540 
2813.569 
2813.598 
2813.627 
2813.656 
2813.685 
2813.714 
2813.743 
2813.772 
2813.801 
2813.830 
2813.859 
2813.888 
2813.917 
2813.946 
2813.975 
2814.004 
2814.033 
2814.062 
2814.091 
2814.120 
2814.149 
2814.178 
2814.207 
2814.235 
2814.264 
2814.293 
2814.322 
2814.351 
2814.380 
2814.409 
2814.438 
2814.467 
2814.496 
2814.525 
2814.554 
2814.583 
2814.612 
2814.641 
2814.670 
2814.699 
2814.728 
2814.757 
2814.785 
2814.814 
2814.843 
2814.872 
2814.901 
2814.930 
2814.959 
2814.988 
2815.017 
2815.046 
2815.075 
2815.104 
2815.133 
2815.162 
2815.190 
2815.219 
2815.248 
2815.277 
2815.306 
2815.335 
2815.364 
2815.393 
2815.422 
2815.451 
2815.480 
2815.509 
2815.537 
2815.566 
2815.595 
2815.624 
2815.653 
2815.682 
2815.711 
2815.740 
2815.769 
2815.798 
2815.826 
2815.855 
2815.884 
2815.913 
2815.942 
2815.971 
2816.000 
2816.029 
2816.058 
2816.087 
2816.115 
2816.144 
2816.173 
2816.202 
2816.231 
2816.260 
2816.289 
2816.318 
2816.346 
2816.375 
2816.404 
2816.433 
2816.462 
2816.491 
2816.520 
2816.549 
2816.578 
2816.606 
2816.635 
2816.664 
2816.693 
2816.722 
2816.751 
2816.780 
2816.808 
2816.837 
2816.866 
2816.895 
2816.924 
2816.953 
2816.982 
2817.010 
2817.039 
2817.068 
2817.097 
2817.126 
2817.155 
2817.184 
2817.212 
2817.241 
2817.270 
2817.299 
2817.328 
2817.357 
2817.386 
2817.414 
2817.443 
2817.472 
2817.501 
2817.530 
2817.559 
2817.587 
2817.616 
2817.645 
2817.674 
2817.703 
2817.732 
2817.760 
2817.789 
2817.818 
2817.847 
2817.876 
2817.905 
2817.933 
2817.962 
2817.991 
2818.020 
2818.049 
2818.078 
2818.106 
2818.135 
2818.164 
2818.193 
2818.222 
2818.250 
2818.279 
2818.308 
2818.337 
2818.366 
2818.395 
2818.423 
2818.452 
2818.481 
2818.510 
2818.539 
2818.567 
2818.596 
2818.625 
2818.654 
2818.683 
2818.711 
2818.740 
2818.769 
2818.798 
2818.827 
2818.855 
2818.884 
2818.913 
2818.942 
2818.971 
2818.999 
2819.028 
2819.057 
2819.086 
2819.115 
2819.143 
2819.172 
2819.201 
2819.230 
2819.258 
2819.287 
2819.316 
2819.345 
2819.374 
2819.402 
2819.431 
2819.460 
2819.489 
2819.517 
2819.546 
2819.575 
2819.604 
2819.633 
2819.661 
2819.690 
2819.719 
2819.748 
2819.776 
2819.805 
2819.834 
2819.863 
2819.891 
2819.920 
2819.949 
2819.978 
2820.006 
2820.035 
2820.064 
2820.093 
2820.121 
2820.150 
2820.179 
2820.208 
2820.236 
2820.265 
2820.294 
2820.323 
2820.351 
2820.380 
2820.409 
2820.438 
2820.466 
2820.495 
2820.524 
2820.553 
2820.581 
2820.610 
2820.639 
2820.668 
2820.696 
2820.725 
2820.754 
2820.782 
2820.811 
2820.840 
2820.869 
2820.897 
2820.926 
2820.955 
2820.984 
2821.012 
2821.041 
2821.070 
2821.098 
2821.127 
2821.156 
2821.185 
2821.213 
2821.242 
2821.271 
2821.299 
2821.328 
2821.357 
2821.386 
2821.414 
2821.443 
2821.472 
2821.500 
2821.529 
2821.558 
2821.586 
2821.615 
2821.644 
2821.673 
2821.701 
2821.730 
2821.759 
2821.787 
2821.816 
2821.845 
2821.873 
2821.902 
2821.931 
2821.959 
2821.988 
2822.017 
2822.046 
2822.074 
2822.103 
2822.132 
2822.160 
2822.189 
2822.218 
2822.246 
2822.275 
2822.304 
2822.332 
2822.361 
2822.390 
2822.418 
2822.447 
2822.476 
2822.504 
2822.533 
2822.562 
2822.590 
2822.619 
2822.648 
2822.676 
2822.705 
2822.734 
2822.762 
2822.791 
2822.820 
2822.848 
2822.877 
2822.906 
2822.934 
2822.963 
2822.992 
2823.020 
2823.049 
2823.078 
2823.106 
2823.135 
2823.163 
2823.192 
2823.221 
2823.249 
2823.278 
2823.307 
2823.335 
2823.364 
2823.393 
2823.421 
2823.450 
2823.479 
2823.507 
2823.536 
2823.564 
2823.593 
2823.622 
2823.650 
2823.679 
2823.708 
2823.736 
2823.765 
2823.793 
2823.822 
2823.851 
2823.879 
2823.908 
2823.937 
2823.965 
2823.994 
2824.022 
2824.051 
2824.080 
2824.108 
2824.137 
2824.165 
2824.194 
2824.223 
2824.251 
2824.280 
2824.309 
2824.337 
2824.366 
2824.394 
2824.423 
2824.452 
2824.480 
2824.509 
2824.537 
2824.566 
2824.595 
2824.623 
2824.652 
2824.680 
2824.709 
2824.737 
2824.766 
2824.795 
2824.823 
2824.852 
2824.880 
2824.909 
2824.938 
2824.966 
2824.995 
2825.023 
2825.052 
2825.081 
2825.109 
2825.138 
2825.166 
2825.195 
2825.223 
2825.252 
2825.281 
2825.309 
2825.338 
2825.366 
2825.395 
2825.423 
2825.452 
2825.481 
2825.509 
2825.538 
2825.566 
2825.595 
2825.623 
2825.652 
2825.680 
2825.709 
2825.738 
2825.766 
2825.795 
2825.823 
2825.852 
2825.880 
2825.909 
2825.937 
2825.966 
2825.995 
2826.023 
2826.052 
2826.080 
2826.109 
2826.137 
2826.166 
2826.194 
2826.223 
2826.251 
2826.280 
2826.308 
2826.337 
2826.366 
2826.394 
2826.423 
2826.451 
2826.480 
2826.508 
2826.537 
2826.565 
2826.594 
2826.622 
2826.651 
2826.679 
2826.708 
2826.736 
2826.765 
2826.793 
2826.822 
2826.851 
2826.879 
2826.908 
2826.936 
2826.965 
2826.993 
2827.022 
2827.050 
2827.079 
2827.107 
2827.136 
2827.164 
2827.193 
2827.221 
2827.250 
2827.278 
2827.307 
2827.335 
2827.364 
2827.392 
2827.421 
2827.449 
2827.478 
2827.506 
2827.535 
2827.563 
2827.592 
2827.620 
2827.649 
2827.677 
2827.706 
2827.734 
2827.763 
2827.791 
2827.820 
2827.848 
2827.876 
2827.905 
2827.933 
2827.962 
2827.990 
2828.019 
2828.047 
2828.076 
2828.104 
2828.133 
2828.161 
2828.190 
2828.218 
2828.247 
2828.275 
2828.304 
2828.332 
2828.361 
2828.389 
2828.417 
2828.446 
2828.474 
2828.503 
2828.531 
2828.560 
2828.588 
2828.617 
2828.645 
2828.674 
2828.702 
2828.731 
2828.759 
2828.787 
2828.816 
2828.844 
2828.873 
2828.901 
2828.930 
2828.958 
2828.987 
2829.015 
2829.043 
2829.072 
2829.100 
2829.129 
2829.157 
2829.186 
2829.214 
2829.242 
2829.271 
2829.299 
2829.328 
2829.356 
2829.385 
2829.413 
2829.441 
2829.470 
2829.498 
2829.527 
2829.555 
2829.584 
2829.612 
2829.640 
2829.669 
2829.697 
2829.726 
2829.754 
2829.783 
2829.811 
2829.839 
2829.868 
2829.896 
2829.925 
2829.953 
2829.981 
2830.010 
2830.038 
2830.067 
2830.095 
2830.123 
2830.152 
2830.180 
2830.209 
2830.237 
2830.265 
2830.294 
2830.322 
2830.351 
2830.379 
2830.407 
2830.436 
2830.464 
2830.493 
2830.521 
2830.549 
2830.578 
2830.606 
2830.635 
2830.663 
2830.691 
2830.720 
2830.748 
2830.776 
2830.805 
2830.833 
2830.862 
2830.890 
2830.918 
2830.947 
2830.975 
2831.003 
2831.032 
2831.060 
2831.089 
2831.117 
2831.145 
2831.174 
2831.202 
2831.230 
2831.259 
2831.287 
2831.316 
2831.344 
2831.372 
2831.401 
2831.429 
2831.457 
2831.486 
2831.514 
2831.542 
2831.571 
2831.599 
2831.627 
2831.656 
2831.684 
2831.712 
2831.741 
2831.769 
2831.798 
2831.826 
2831.854 
2831.883 
2831.911 
2831.939 
2831.968 
2831.996 
2832.024 
2832.053 
2832.081 
2832.109 
2832.138 
2832.166 
2832.194 
2832.223 
2832.251 
2832.279 
2832.308 
2832.336 
2832.364 
2832.393 
2832.421 
2832.449 
2832.477 
2832.506 
2832.534 
2832.562 
2832.591 
2832.619 
2832.647 
2832.676 
2832.704 
2832.732 
2832.761 
2832.789 
2832.817 
2832.846 
2832.874 
2832.902 
2832.931 
2832.959 
2832.987 
2833.015 
2833.044 
2833.072 
2833.100 
2833.129 
2833.157 
2833.185 
2833.214 
2833.242 
2833.270 
2833.298 
2833.327 
2833.355 
2833.383 
2833.412 
2833.440 
2833.468 
2833.496 
2833.525 
2833.553 
2833.581 
2833.610 
2833.638 
2833.666 
2833.694 
2833.723 
2833.751 
2833.779 
2833.807 
2833.836 
2833.864 
2833.892 
2833.921 
2833.949 
2833.977 
2834.005 
2834.034 
2834.062 
2834.090 
2834.118 
2834.147 
2834.175 
2834.203 
2834.231 
2834.260 
2834.288 
2834.316 
2834.344 
2834.373 
2834.401 
2834.429 
2834.458 
2834.486 
2834.514 
2834.542 
2834.571 
2834.599 
2834.627 
2834.655 
2834.683 
2834.712 
2834.740 
2834.768 
2834.796 
2834.825 
2834.853 
2834.881 
2834.909 
2834.938 
2834.966 
2834.994 
2835.022 
2835.051 
2835.079 
2835.107 
2835.135 
2835.163 
2835.192 
2835.220 
2835.248 
2835.276 
2835.305 
2835.333 
2835.361 
2835.389 
2835.417 
2835.446 
2835.474 
2835.502 
2835.530 
2835.559 
2835.587 
2835.615 
2835.643 
2835.671 
2835.700 
2835.728 
2835.756 
2835.784 
2835.812 
2835.841 
2835.869 
2835.897 
2835.925 
2835.953 
2835.982 
2836.010 
2836.038 
2836.066 
2836.094 
2836.123 
2836.151 
2836.179 
2836.207 
2836.235 
2836.264 
2836.292 
2836.320 
2836.348 
2836.376 
2836.404 
2836.433 
2836.461 
2836.489 
2836.517 
2836.545 
2836.574 
2836.602 
2836.630 
2836.658 
2836.686 
2836.714 
2836.743 
2836.771 
2836.799 
2836.827 
2836.855 
2836.883 
2836.912 
2836.940 
2836.968 
2836.996 
2837.024 
2837.052 
2837.081 
2837.109 
2837.137 
2837.165 
2837.193 
2837.221 
2837.249 
2837.278 
2837.306 
2837.334 
2837.362 
2837.390 
2837.418 
2837.447 
2837.475 
2837.503 
2837.531 
2837.559 
2837.587 
2837.615 
2837.644 
2837.672 
2837.700 
2837.728 
2837.756 
2837.784 
2837.812 
2837.840 
2837.869 
2837.897 
2837.925 
2837.953 
2837.981 
2838.009 
2838.037 
2838.066 
2838.094 
2838.122 
2838.150 
2838.178 
2838.206 
2838.234 
2838.262 
2838.290 
2838.319 
2838.347 
2838.375 
2838.403 
2838.431 
2838.459 
2838.487 
2838.515 
2838.543 
2838.572 
2838.600 
2838.628 
2838.656 
2838.684 
2838.712 
2838.740 
2838.768 
2838.796 
2838.824 
2838.853 
2838.881 
2838.909 
2838.937 
2838.965 
2838.993 
2839.021 
2839.049 
2839.077 
2839.105 
2839.133 
2839.162 
2839.190 
2839.218 
2839.246 
2839.274 
2839.302 
2839.330 
2839.358 
2839.386 
2839.414 
2839.442 
2839.470 
2839.499 
2839.527 
2839.555 
2839.583 
2839.611 
2839.639 
2839.667 
2839.695 
2839.723 
2839.751 
2839.779 
2839.807 
2839.835 
2839.863 
2839.891 
2839.920 
2839.948 
2839.976 
2840.004 
2840.032 
2840.060 
2840.088 
2840.116 
2840.144 
2840.172 
2840.200 
2840.228 
2840.256 
2840.284 
2840.312 
2840.340 
2840.368 
2840.396 
2840.424 
2840.452 
2840.480 
2840.509 
2840.537 
2840.565 
2840.593 
2840.621 
2840.649 
2840.677 
2840.705 
2840.733 
2840.761 
2840.789 
2840.817 
2840.845 
2840.873 
2840.901 
2840.929 
2840.957 
2840.985 
2841.013 
2841.041 
2841.069 
2841.097 
2841.125 
2841.153 
2841.181 
2841.209 
2841.237 
2841.265 
2841.293 
2841.321 
2841.349 
2841.377 
2841.405 
2841.433 
2841.461 
2841.489 
2841.517 
2841.545 
2841.573 
2841.601 
2841.629 
2841.657 
2841.685 
2841.713 
2841.741 
2841.769 
2841.797 
2841.825 
2841.853 
2841.881 
2841.909 
2841.937 
2841.965 
2841.993 
2842.021 
2842.049 
2842.077 
2842.105 
2842.133 
2842.161 
2842.189 
2842.217 
2842.245 
2842.273 
2842.301 
2842.329 
2842.357 
2842.385 
2842.413 
2842.441 
2842.469 
2842.497 
2842.525 
2842.553 
2842.581 
2842.609 
2842.636 
2842.664 
2842.692 
2842.720 
2842.748 
2842.776 
2842.804 
2842.832 
2842.860 
2842.888 
2842.916 
2842.944 
2842.972 
2843.000 
2843.028 
2843.056 
2843.084 
2843.112 
2843.140 
2843.168 
2843.196 
2843.223 
2843.251 
2843.279 
2843.307 
2843.335 
2843.363 
2843.391 
2843.419 
2843.447 
2843.475 
2843.503 
2843.531 
2843.559 
2843.587 
2843.615 
2843.642 
2843.670 
2843.698 
2843.726 
2843.754 
2843.782 
2843.810 
2843.838 
2843.866 
2843.894 
2843.922 
2843.950 
2843.978 
2844.005 
2844.033 
2844.061 
2844.089 
2844.117 
2844.145 
2844.173 
2844.201 
2844.229 
2844.257 
2844.284 
2844.312 
2844.340 
2844.368 
2844.396 
2844.424 
2844.452 
2844.480 
2844.508 
2844.536 
2844.563 
2844.591 
2844.619 
2844.647 
2844.675 
2844.703 
2844.731 
2844.759 
2844.787 
2844.814 
2844.842 
2844.870 
2844.898 
2844.926 
2844.954 
2844.982 
2845.010 
2845.038 
2845.065 
2845.093 
2845.121 
2845.149 
2845.177 
2845.205 
2845.233 
2845.260 
2845.288 
2845.316 
2845.344 
2845.372 
2845.400 
2845.428 
2845.456 
2845.483 
2845.511 
2845.539 
2845.567 
2845.595 
2845.623 
2845.651 
2845.678 
2845.706 
2845.734 
2845.762 
2845.790 
2845.818 
2845.846 
2845.873 
2845.901 
2845.929 
2845.957 
2845.985 
2846.013 
2846.040 
2846.068 
2846.096 
2846.124 
2846.152 
2846.180 
2846.207 
2846.235 
2846.263 
2846.291 
2846.319 
2846.347 
2846.374 
2846.402 
2846.430 
2846.458 
2846.486 
2846.514 
2846.541 
2846.569 
2846.597 
2846.625 
2846.653 
2846.680 
2846.708 
2846.736 
2846.764 
2846.792 
2846.820 
2846.847 
2846.875 
2846.903 
2846.931 
2846.959 
2846.986 
2847.014 
2847.042 
2847.070 
2847.098 
2847.125 
2847.153 
2847.181 
2847.209 
2847.237 
2847.264 
2847.292 
2847.320 
2847.348 
2847.376 
2847.403 
2847.431 
2847.459 
2847.487 
2847.515 
2847.542 
2847.570 
2847.598 
2847.626 
2847.653 
2847.681 
2847.709 
2847.737 
2847.765 
2847.792 
2847.820 
2847.848 
2847.876 
2847.903 
2847.931 
2847.959 
2847.987 
2848.015 
2848.042 
2848.070 
2848.098 
2848.126 
2848.153 
2848.181 
2848.209 
2848.237 
2848.264 
2848.292 
2848.320 
2848.348 
2848.376 
2848.403 
2848.431 
2848.459 
2848.487 
2848.514 
2848.542 
2848.570 
2848.598 
2848.625 
2848.653 
2848.681 
2848.709 
2848.736 
2848.764 
2848.792 
2848.819 
2848.847 
2848.875 
2848.903 
2848.930 
2848.958 
2848.986 
2849.014 
2849.041 
2849.069 
2849.097 
2849.125 
2849.152 
2849.180 
2849.208 
2849.235 
2849.263 
2849.291 
2849.319 
2849.346 
2849.374 
2849.402 
2849.430 
2849.457 
2849.485 
2849.513 
2849.540 
2849.568 
2849.596 
2849.624 
2849.651 
2849.679 
2849.707 
2849.734 
2849.762 
2849.790 
2849.818 
2849.845 
2849.873 
2849.901 
2849.928 
2849.956 
2849.984 
2850.011 
2850.039 
2850.067 
2850.095 
2850.122 
2850.150 
2850.178 
2850.205 
2850.233 
2850.261 
2850.288 
2850.316 
2850.344 
2850.371 
2850.399 
2850.427 
2850.454 
2850.482 
2850.510 
2850.538 
2850.565 
2850.593 
2850.621 
2850.648 
2850.676 
2850.704 
2850.731 
2850.759 
2850.787 
2850.814 
2850.842 
2850.870 
2850.897 
2850.925 
2850.953 
2850.980 
2851.008 
2851.036 
2851.063 
2851.091 
2851.119 
2851.146 
2851.174 
2851.202 
2851.229 
2851.257 
2851.285 
2851.312 
2851.340 
2851.367 
2851.395 
2851.423 
2851.450 
2851.478 
2851.506 
2851.533 
2851.561 
2851.589 
2851.616 
2851.644 
2851.672 
2851.699 
2851.727 
2851.754 
2851.782 
2851.810 
2851.837 
2851.865 
2851.893 
2851.920 
2851.948 
2851.976 
2852.003 
2852.031 
2852.058 
2852.086 
2852.114 
2852.141 
2852.169 
2852.196 
2852.224 
2852.252 
2852.279 
2852.307 
2852.335 
2852.362 
2852.390 
2852.417 
2852.445 
2852.473 
2852.500 
2852.528 
2852.555 
2852.583 
2852.611 
2852.638 
2852.666 
2852.693 
2852.721 
2852.749 
2852.776 
2852.804 
2852.831 
2852.859 
2852.887 
2852.914 
2852.942 
2852.969 
2852.997 
2853.025 
2853.052 
2853.080 
2853.107 
2853.135 
2853.163 
2853.190 
2853.218 
2853.245 
2853.273 
2853.300 
2853.328 
2853.356 
2853.383 
2853.411 
2853.438 
2853.466 
2853.494 
2853.521 
2853.549 
2853.576 
2853.604 
2853.631 
2853.659 
2853.687 
2853.714 
2853.742 
2853.769 
2853.797 
2853.824 
2853.852 
2853.879 
2853.907 
2853.935 
2853.962 
2853.990 
2854.017 
2854.045 
2854.072 
2854.100 
2854.127 
2854.155 
2854.183 
2854.210 
2854.238 
2854.265 
2854.293 
2854.320 
2854.348 
2854.375 
2854.403 
2854.430 
2854.458 
2854.486 
2854.513 
2854.541 
2854.568 
2854.596 
2854.623 
2854.651 
2854.678 
2854.706 
2854.733 
2854.761 
2854.788 
2854.816 
2854.843 
2854.871 
2854.898 
2854.926 
2854.953 
2854.981 
2855.009 
2855.036 
2855.064 
2855.091 
2855.119 
2855.146 
2855.174 
2855.201 
2855.229 
2855.256 
2855.284 
2855.311 
2855.339 
2855.366 
2855.394 
2855.421 
2855.449 
2855.476 
2855.504 
2855.531 
2855.559 
2855.586 
2855.614 
2855.641 
2855.669 
2855.696 
2855.724 
2855.751 
2855.779 
2855.806 
2855.834 
2855.861 
2855.889 
2855.916 
2855.944 
2855.971 
2855.999 
2856.026 
2856.054 
2856.081 
2856.108 
2856.136 
2856.163 
2856.191 
2856.218 
2856.246 
2856.273 
2856.301 
2856.328 
2856.356 
2856.383 
2856.411 
2856.438 
2856.466 
2856.493 
2856.521 
2856.548 
2856.575 
2856.603 
2856.630 
2856.658 
2856.685 
2856.713 
2856.740 
2856.768 
2856.795 
2856.823 
2856.850 
2856.877 
2856.905 
2856.932 
2856.960 
2856.987 
2857.015 
2857.042 
2857.070 
2857.097 
2857.125 
2857.152 
2857.179 
2857.207 
2857.234 
2857.262 
2857.289 
2857.317 
2857.344 
2857.371 
2857.399 
2857.426 
2857.454 
2857.481 
2857.509 
2857.536 
2857.563 
2857.591 
2857.618 
2857.646 
2857.673 
2857.701 
2857.728 
2857.755 
2857.783 
2857.810 
2857.838 
2857.865 
2857.892 
2857.920 
2857.947 
2857.975 
2858.002 
2858.030 
2858.057 
2858.084 
2858.112 
2858.139 
2858.167 
2858.194 
2858.221 
2858.249 
2858.276 
2858.304 
2858.331 
2858.358 
2858.386 
2858.413 
2858.441 
2858.468 
2858.495 
2858.523 
2858.550 
2858.578 
2858.605 
2858.632 
2858.660 
2858.687 
2858.714 
2858.742 
2858.769 
2858.797 
2858.824 
2858.851 
2858.879 
2858.906 
2858.933 
2858.961 
2858.988 
2859.016 
2859.043 
2859.070 
2859.098 
2859.125 
2859.152 
2859.180 
2859.207 
2859.235 
2859.262 
2859.289 
2859.317 
2859.344 
2859.371 
2859.399 
2859.426 
2859.453 
2859.481 
2859.508 
2859.536 
2859.563 
2859.590 
2859.618 
2859.645 
2859.672 
2859.700 
2859.727 
2859.754 
2859.782 
2859.809 
2859.836 
2859.864 
2859.891 
2859.918 
2859.946 
2859.973 
2860.000 
2860.028 
2860.055 
2860.082 
2860.110 
2860.137 
2860.164 
2860.192 
2860.219 
2860.246 
2860.274 
2860.301 
2860.328 
2860.356 
2860.383 
2860.410 
2860.438 
2860.465 
2860.492 
2860.520 
2860.547 
2860.574 
2860.602 
2860.629 
2860.656 
2860.684 
2860.711 
2860.738 
2860.765 
2860.793 
2860.820 
2860.847 
2860.875 
2860.902 
2860.929 
2860.957 
2860.984 
2861.011 
2861.039 
2861.066 
2861.093 
2861.120 
2861.148 
2861.175 
2861.202 
2861.230 
2861.257 
2861.284 
2861.311 
2861.339 
2861.366 
2861.393 
2861.421 
2861.448 
2861.475 
2861.502 
2861.530 
2861.557 
2861.584 
2861.612 
2861.639 
2861.666 
2861.693 
2861.721 
2861.748 
2861.775 
2861.803 
2861.830 
2861.857 
2861.884 
2861.912 
2861.939 
2861.966 
2861.993 
2862.021 
2862.048 
2862.075 
2862.102 
2862.130 
2862.157 
2862.184 
2862.211 
2862.239 
2862.266 
2862.293 
2862.320 
2862.348 
2862.375 
2862.402 
2862.429 
2862.457 
2862.484 
2862.511 
2862.538 
2862.566 
2862.593 
2862.620 
2862.647 
2862.675 
2862.702 
2862.729 
2862.756 
2862.784 
2862.811 
2862.838 
2862.865 
2862.893 
2862.920 
2862.947 
2862.974 
2863.001 
2863.029 
2863.056 
2863.083 
2863.110 
2863.138 
2863.165 
2863.192 
2863.219 
2863.247 
2863.274 
2863.301 
2863.328 
2863.355 
2863.383 
2863.410 
2863.437 
2863.464 
2863.491 
2863.519 
2863.546 
2863.573 
2863.600 
2863.627 
2863.655 
2863.682 
2863.709 
2863.736 
2863.763 
2863.791 
2863.818 
2863.845 
2863.872 
2863.899 
2863.927 
2863.954 
2863.981 
2864.008 
2864.035 
2864.063 
2864.090 
2864.117 
2864.144 
2864.171 
2864.199 
2864.226 
2864.253 
2864.280 
2864.307 
2864.334 
2864.362 
2864.389 
2864.416 
2864.443 
2864.470 
2864.498 
2864.525 
2864.552 
2864.579 
2864.606 
2864.633 
2864.661 
2864.688 
2864.715 
2864.742 
2864.769 
2864.796 
2864.824 
2864.851 
2864.878 
2864.905 
2864.932 
2864.959 
2864.986 
2865.014 
2865.041 
2865.068 
2865.095 
2865.122 
2865.149 
2865.177 
2865.204 
2865.231 
2865.258 
2865.285 
2865.312 
2865.339 
2865.367 
2865.394 
2865.421 
2865.448 
2865.475 
2865.502 
2865.529 
2865.557 
2865.584 
2865.611 
2865.638 
2865.665 
2865.692 
2865.719 
2865.746 
2865.774 
2865.801 
2865.828 
2865.855 
2865.882 
2865.909 
2865.936 
2865.963 
2865.991 
2866.018 
2866.045 
2866.072 
2866.099 
2866.126 
2866.153 
2866.180 
2866.207 
2866.235 
2866.262 
2866.289 
2866.316 
2866.343 
2866.370 
2866.397 
2866.424 
2866.451 
2866.479 
2866.506 
2866.533 
2866.560 
2866.587 
2866.614 
2866.641 
2866.668 
2866.695 
2866.722 
2866.749 
2866.777 
2866.804 
2866.831 
2866.858 
2866.885 
2866.912 
2866.939 
2866.966 
2866.993 
2867.020 
2867.047 
2867.075 
2867.102 
2867.129 
2867.156 
2867.183 
2867.210 
2867.237 
2867.264 
2867.291 
2867.318 
2867.345 
2867.372 
2867.399 
2867.426 
2867.454 
2867.481 
2867.508 
2867.535 
2867.562 
2867.589 
2867.616 
2867.643 
2867.670 
2867.697 
2867.724 
2867.751 
2867.778 
2867.805 
2867.832 
2867.859 
2867.886 
2867.913 
2867.941 
2867.968 
2867.995 
2868.022 
2868.049 
2868.076 
2868.103 
2868.130 
2868.157 
2868.184 
2868.211 
2868.238 
2868.265 
2868.292 
2868.319 
2868.346 
2868.373 
2868.400 
2868.427 
2868.454 
2868.481 
2868.508 
2868.535 
2868.562 
2868.589 
2868.616 
2868.643 
2868.670 
2868.697 
2868.724 
2868.751 
2868.779 
2868.806 
2868.833 
2868.860 
2868.887 
2868.914 
2868.941 
2868.968 
2868.995 
2869.022 
2869.049 
2869.076 
2869.103 
2869.130 
2869.157 
2869.184 
2869.211 
2869.238 
2869.265 
2869.292 
2869.319 
2869.346 
2869.373 
2869.400 
2869.427 
2869.454 
2869.481 
2869.508 
2869.535 
2869.562 
2869.589 
2869.616 
2869.643 
2869.669 
2869.696 
2869.723 
2869.750 
2869.777 
2869.804 
2869.831 
2869.858 
2869.885 
2869.912 
2869.939 
2869.966 
2869.993 
2870.020 
2870.047 
2870.074 
2870.101 
2870.128 
2870.155 
2870.182 
2870.209 
2870.236 
2870.263 
2870.290 
2870.317 
2870.344 
2870.371 
2870.398 
2870.425 
2870.452 
2870.479 
2870.506 
2870.532 
2870.559 
2870.586 
2870.613 
2870.640 
2870.667 
2870.694 
2870.721 
2870.748 
2870.775 
2870.802 
2870.829 
2870.856 
2870.883 
2870.910 
2870.937 
2870.964 
2870.990 
2871.017 
2871.044 
2871.071 
2871.098 
2871.125 
2871.152 
2871.179 
2871.206 
2871.233 
2871.260 
2871.287 
2871.314 
2871.341 
2871.367 
2871.394 
2871.421 
2871.448 
2871.475 
2871.502 
2871.529 
2871.556 
2871.583 
2871.610 
2871.637 
2871.664 
2871.690 
2871.717 
2871.744 
2871.771 
2871.798 
2871.825 
2871.852 
2871.879 
2871.906 
2871.933 
2871.959 
2871.986 
2872.013 
2872.040 
2872.067 
2872.094 
2872.121 
2872.148 
2872.175 
2872.202 
2872.228 
2872.255 
2872.282 
2872.309 
2872.336 
2872.363 
2872.390 
2872.417 
2872.444 
2872.470 
2872.497 
2872.524 
2872.551 
2872.578 
2872.605 
2872.632 
2872.659 
2872.685 
2872.712 
2872.739 
2872.766 
2872.793 
2872.820 
2872.847 
2872.873 
2872.900 
2872.927 
2872.954 
2872.981 
2873.008 
2873.035 
2873.062 
2873.088 
2873.115 
2873.142 
2873.169 
2873.196 
2873.223 
2873.249 
2873.276 
2873.303 
2873.330 
2873.357 
2873.384 
2873.411 
2873.437 
2873.464 
2873.491 
2873.518 
2873.545 
2873.572 
2873.598 
2873.625 
2873.652 
2873.679 
2873.706 
2873.733 
2873.759 
2873.786 
2873.813 
2873.840 
2873.867 
2873.894 
2873.920 
2873.947 
2873.974 
2874.001 
2874.028 
2874.055 
2874.081 
2874.108 
2874.135 
2874.162 
2874.189 
2874.215 
2874.242 
2874.269 
2874.296 
2874.323 
2874.350 
2874.376 
2874.403 
2874.430 
2874.457 
2874.484 
2874.510 
2874.537 
2874.564 
2874.591 
2874.618 
2874.644 
2874.671 
2874.698 
2874.725 
2874.752 
2874.778 
2874.805 
2874.832 
2874.859 
2874.886 
2874.912 
2874.939 
2874.966 
2874.993 
2875.019 
2875.046 
2875.073 
2875.100 
2875.127 
2875.153 
2875.180 
2875.207 
2875.234 
2875.261 
2875.287 
2875.314 
2875.341 
2875.368 
2875.394 
2875.421 
2875.448 
2875.475 
2875.501 
2875.528 
2875.555 
2875.582 
2875.609 
2875.635 
2875.662 
2875.689 
2875.716 
2875.742 
2875.769 
2875.796 
2875.823 
2875.849 
2875.876 
2875.903 
2875.930 
2875.956 
2875.983 
2876.010 
2876.037 
2876.063 
2876.090 
2876.117 
2876.144 
2876.170 
2876.197 
2876.224 
2876.251 
2876.277 
2876.304 
2876.331 
2876.358 
2876.384 
2876.411 
2876.438 
2876.464 
2876.491 
2876.518 
2876.545 
2876.571 
2876.598 
2876.625 
2876.652 
2876.678 
2876.705 
2876.732 
2876.758 
2876.785 
2876.812 
2876.839 
2876.865 
2876.892 
2876.919 
2876.945 
2876.972 
2876.999 
2877.026 
2877.052 
2877.079 
2877.106 
2877.132 
2877.159 
2877.186 
2877.213 
2877.239 
2877.266 
2877.293 
2877.319 
2877.346 
2877.373 
2877.399 
2877.426 
2877.453 
2877.480 
2877.506 
2877.533 
2877.560 
2877.586 
2877.613 
2877.640 
2877.666 
2877.693 
2877.720 
2877.746 
2877.773 
2877.800 
2877.826 
2877.853 
2877.880 
2877.907 
2877.933 
2877.960 
2877.987 
2878.013 
2878.040 
2878.067 
2878.093 
2878.120 
2878.147 
2878.173 
2878.200 
2878.227 
2878.253 
2878.280 
2878.307 
2878.333 
2878.360 
2878.387 
2878.413 
2878.440 
2878.467 
2878.493 
2878.520 
2878.547 
2878.573 
2878.600 
2878.626 
2878.653 
2878.680 
2878.706 
2878.733 
2878.760 
2878.786 
2878.813 
2878.840 
2878.866 
2878.893 
2878.920 
2878.946 
2878.973 
2879.000 
2879.026 
2879.053 
2879.079 
2879.106 
2879.133 
2879.159 
2879.186 
2879.213 
2879.239 
2879.266 
2879.292 
2879.319 
2879.346 
2879.372 
2879.399 
2879.426 
2879.452 
2879.479 
2879.505 
2879.532 
2879.559 
2879.585 
2879.612 
2879.639 
2879.665 
2879.692 
2879.718 
2879.745 
2879.772 
2879.798 
2879.825 
2879.851 
2879.878 
2879.905 
2879.931 
2879.958 
2879.984 
